pos,corr_resp,trials.thisRepN,trials.thisTrialN,trials.thisN,trials.thisIndex,trials_2.thisRepN,trials_2.thisTrialN,trials_2.thisN,trials_2.thisIndex,fixation.started,line1.started,line2.started,line3.started,line4.started,fixation.stopped,probe.started,key_resp.started,key_resp.keys,key_resp.corr,key_resp.rt,participant,session,date,expName,psychopyVersion,frameRate,
-50,x,0,0,0,0,,,,,108.56102289998671,109.51127610000549,109.51127610000549,109.51127610000549,109.51127610000549,109.57504179998068,110.50844269996742,110.50844269996742,x,1,1.3259978999849409,ABC,001,2022-10-04_15h42.04.551,sequential,2022.2.2,60.808497605843975,
150,v,0,1,1,1,,,,,111.8933098000125,112.89190200000303,112.89190200000303,112.89190200000303,112.89190200000303,112.9116191000212,113.88563789997716,113.88563789997716,v,1,1.195183600008022,ABC,001,2022-10-04_15h42.04.551,sequential,2022.2.2,60.808497605843975,
50,c,0,2,2,2,,,,,115.10414130002027,116.10796479997225,116.10796479997225,116.10796479997225,116.10796479997225,116.10796479997225,117.10462519997964,117.10462519997964,c,1,1.5581522000138648,ABC,001,2022-10-04_15h42.04.551,sequential,2022.2.2,60.808497605843975,
-150,z,0,3,3,3,,,,,118.68889519997174,119.6873470999999,119.6873470999999,119.6873470999999,119.6873470999999,119.70390289998613,120.6881229999708,120.6881229999708,z,1,0.9106117999763228,ABC,001,2022-10-04_15h42.04.551,sequential,2022.2.2,60.808497605843975,
-50,x,1,0,4,0,,,,,121.62086099997396,122.62114259996451,122.62114259996451,122.62114259996451,122.62114259996451,122.62114259996451,123.62221309996676,123.62221309996676,x,1,1.0102703000302427,ABC,001,2022-10-04_15h42.04.551,sequential,2022.2.2,60.808497605843975,
150,v,1,1,5,1,,,,,124.65490239998326,125.65512760001002,125.65512760001002,125.65512760001002,125.65512760001002,125.65512760001002,126.65602389996639,126.65602389996639,v,1,0.8489483000012115,ABC,001,2022-10-04_15h42.04.551,sequential,2022.2.2,60.808497605843975,
50,c,1,2,6,2,,,,,127.53878709999844,128.52261310000904,128.52261310000904,128.52261310000904,128.52261310000904,128.53893609996885,129.52228629996534,129.52228629996534,c,1,1.0786030000308529,ABC,001,2022-10-04_15h42.04.551,sequential,2022.2.2,60.808497605843975,
-150,z,1,3,7,3,,,,,130.62240039999597,131.62273399997503,131.62273399997503,131.62273399997503,131.62273399997503,131.62273399997503,132.62282789999153,132.62282789999153,z,1,0.7422740999609232,ABC,001,2022-10-04_15h42.04.551,sequential,2022.2.2,60.808497605843975,
-50,x,2,0,8,0,,,,,133.38964100001613,134.37844900001073,134.37844900001073,134.37844900001073,134.37844900001073,134.39757709996775,135.37748779996764,135.37748779996764,x,1,0.7524254000163637,ABC,001,2022-10-04_15h42.04.551,sequential,2022.2.2,60.808497605843975,
150,v,2,1,9,1,,,,,136.15851939999266,137.15812219999498,137.15812219999498,137.15812219999498,137.15812219999498,137.15812219999498,138.1597254999797,138.1597254999797,v,1,0.7450261999620125,ABC,001,2022-10-04_15h42.04.551,sequential,2022.2.2,60.808497605843975,
50,c,2,2,10,2,,,,,138.92655229999218,139.92609799996717,139.92609799996717,139.92609799996717,139.92609799996717,139.9426771000144,140.9265709000174,140.9265709000174,c,1,0.883821600000374,ABC,001,2022-10-04_15h42.04.551,sequential,2022.2.2,60.808497605843975,
-150,z,2,3,11,3,,,,,141.84220080001978,142.8266971000121,142.8266971000121,142.8266971000121,142.8266971000121,142.84350869996706,143.8305556999985,143.8305556999985,z,1,0.49957139999605715,ABC,001,2022-10-04_15h42.04.551,sequential,2022.2.2,60.808497605843975,
-50,x,3,0,12,0,,,,,144.3605219000019,145.3603553000139,145.3603553000139,145.3603553000139,145.3603553000139,145.3603553000139,146.3615120999748,146.3615120999748,x,1,0.6124481000006199,ABC,001,2022-10-04_15h42.04.551,sequential,2022.2.2,60.808497605843975,
150,v,3,1,13,1,,,,,146.99401419999776,147.97841889999108,147.97841889999108,147.97841889999108,147.97841889999108,147.99449010001263,148.9792749999906,148.9792749999906,v,1,0.7773806999903172,ABC,001,2022-10-04_15h42.04.551,sequential,2022.2.2,60.808497605843975,
50,c,3,2,14,2,,,,,149.79396079998696,150.77964059996884,150.77964059996884,150.77964059996884,150.77964059996884,150.7973600999685,151.7793476000079,151.7793476000079,c,1,0.8942139000282623,ABC,001,2022-10-04_15h42.04.551,sequential,2022.2.2,60.808497605843975,
-150,z,3,3,15,3,,,,,152.6949619000079,153.6970047999639,153.6970047999639,153.6970047999639,153.6970047999639,153.6970047999639,154.69687549996888,154.69687549996888,z,1,0.5685757999890484,ABC,001,2022-10-04_15h42.04.551,sequential,2022.2.2,60.808497605843975,
-50,x,4,0,16,0,,,,,155.29661969997687,156.29562160000205,156.29562160000205,156.29562160000205,156.29562160000205,156.29562160000205,157.29836620000424,157.29836620000424,x,1,0.7020425000227988,ABC,001,2022-10-04_15h42.04.551,sequential,2022.2.2,60.808497605843975,
150,v,4,1,17,1,,,,,158.0276308999746,159.01361069997074,159.01361069997074,159.01361069997074,159.01361069997074,159.03004400001373,160.01508410001406,160.01508410001406,v,1,0.6376735999947414,ABC,001,2022-10-04_15h42.04.551,sequential,2022.2.2,60.808497605843975,
50,c,4,2,18,2,,,,,160.6798605999793,161.6811017,161.6811017,161.6811017,161.6811017,161.6811017,162.68262139998842,162.68262139998842,c,1,0.6644225999480113,ABC,001,2022-10-04_15h42.04.551,sequential,2022.2.2,60.808497605843975,
-150,z,4,3,19,3,,,,,163.3640265999711,164.36424769996665,164.36424769996665,164.36424769996665,164.36424769996665,164.36424769996665,165.36541460000444,165.36541460000444,z,1,0.6159562999964692,ABC,001,2022-10-04_15h42.04.551,sequential,2022.2.2,60.808497605843975,
-50,x,5,0,20,0,,,,,165.99789559998317,166.99839500000235,166.99839500000235,166.99839500000235,166.99839500000235,166.99839500000235,167.999843699974,167.999843699974,x,1,0.6163054999778979,ABC,001,2022-10-04_15h42.04.551,sequential,2022.2.2,60.808497605843975,
150,v,5,1,21,1,,,,,168.63247110001976,169.6320706999977,169.6320706999977,169.6320706999977,169.6320706999977,169.6320706999977,170.6252630999661,170.6252630999661,v,1,0.6027613999904133,ABC,001,2022-10-04_15h42.04.551,sequential,2022.2.2,60.808497605843975,
50,c,5,2,22,2,,,,,171.2500476000132,172.2494553999859,172.2494553999859,172.2494553999859,172.2494553999859,172.2494553999859,173.25097009999445,173.25097009999445,c,1,0.6500244000344537,ABC,001,2022-10-04_15h42.04.551,sequential,2022.2.2,60.808497605843975,
-150,z,5,3,23,3,,,,,173.93141610000748,174.91696250002133,174.91696250002133,174.91696250002133,174.91696250002133,174.93256499996642,175.91616919997614,175.91616919997614,z,1,0.49753739999141544,ABC,001,2022-10-04_15h42.04.551,sequential,2022.2.2,60.808497605843975,
-50,x,6,0,24,0,,,,,176.43298529996537,177.42444420000538,177.42444420000538,177.42444420000538,177.42444420000538,177.4438145000022,178.42971739999484,178.42971739999484,x,1,0.41544339997926727,ABC,001,2022-10-04_15h42.04.551,sequential,2022.2.2,60.808497605843975,
150,v,6,1,25,1,,,,,178.8775456000003,179.8732840999728,179.8732840999728,179.8732840999728,179.8732840999728,179.89305790001526,180.86948389996542,180.86948389996542,v,1,0.5799928999622352,ABC,001,2022-10-04_15h42.04.551,sequential,2022.2.2,60.808497605843975,
50,c,6,2,26,2,,,,,181.46799609996378,182.46830710000359,182.46830710000359,182.46830710000359,182.46830710000359,182.46830710000359,183.46972759999335,183.46972759999335,c,1,0.5514620999456383,ABC,001,2022-10-04_15h42.04.551,sequential,2022.2.2,60.808497605843975,
-150,z,6,3,27,3,,,,,184.0532336999895,185.05306740000378,185.05306740000378,185.05306740000378,185.05306740000378,185.06961479998427,186.0536948000081,186.0536948000081,z,1,0.4326168000116013,ABC,001,2022-10-04_15h42.04.551,sequential,2022.2.2,60.808497605843975,
-50,x,7,0,28,0,,,,,186.50269529997604,187.50329269998474,187.50329269998474,187.50329269998474,187.50329269998474,187.50329269998474,188.50327009998728,188.50327009998728,x,1,0.4139312000479549,ABC,001,2022-10-04_15h42.04.551,sequential,2022.2.2,60.808497605843975,
150,v,7,1,29,1,,,,,188.93563580000773,189.9265260999673,189.9265260999673,189.9265260999673,189.9265260999673,189.9472946000169,190.93388019996928,190.93388019996928,v,1,0.5079998000292107,ABC,001,2022-10-04_15h42.04.551,sequential,2022.2.2,60.808497605843975,
50,c,7,2,30,2,,,,,191.47688679996645,192.47607199999038,192.47607199999038,192.47607199999038,192.47607199999038,192.49604830000317,193.47037110000383,193.47037110000383,c,1,0.6165745999896899,ABC,001,2022-10-04_15h42.04.551,sequential,2022.2.2,60.808497605843975,
-150,z,7,3,31,3,,,,,194.12070109997876,195.11043050000444,195.11043050000444,195.11043050000444,195.11043050000444,195.130067399994,196.1069889999926,196.1069889999926,z,1,0.6474817999405786,ABC,001,2022-10-04_15h42.04.551,sequential,2022.2.2,60.808497605843975,
-50,x,8,0,32,0,,,,,196.788079299964,197.78846289997455,197.78846289997455,197.78846289997455,197.78846289997455,197.78846289997455,198.7730550999986,198.7730550999986,x,1,0.4216036000289023,ABC,001,2022-10-04_15h42.04.551,sequential,2022.2.2,60.808497605843975,
150,v,8,1,33,1,,,,,199.23704749997705,200.22318229998928,200.22318229998928,200.22318229998928,200.22318229998928,200.23962730000494,201.22409430000698,201.22409430000698,v,1,0.6184079000377096,ABC,001,2022-10-04_15h42.04.551,sequential,2022.2.2,60.808497605843975,
50,c,8,2,34,2,,,,,201.88927139999578,202.87378279998666,202.87378279998666,202.87378279998666,202.87378279998666,202.8903885000036,203.8750369999907,203.8750369999907,c,1,0.5840895000146702,ABC,001,2022-10-04_15h42.04.551,sequential,2022.2.2,60.808497605843975,
-150,z,8,3,35,3,,,,,204.49064839998027,205.49089680000907,205.49089680000907,205.49089680000907,205.49089680000907,205.49089680000907,206.4912516999757,206.4912516999757,z,1,0.5026287999935448,ABC,001,2022-10-04_15h42.04.551,sequential,2022.2.2,60.808497605843975,
-50,x,9,0,36,0,,,,,207.023248100013,208.02343910001218,208.02343910001218,208.02343910001218,208.02343910001218,208.02343910001218,209.0237433000002,209.0237433000002,x,1,0.3645088999764994,ABC,001,2022-10-04_15h42.04.551,sequential,2022.2.2,60.808497605843975,
150,v,9,1,37,1,,,,,209.40717849996872,210.3972683000029,210.3972683000029,210.3972683000029,210.3972683000029,210.41721939999843,211.39374520001002,211.39374520001002,v,1,0.4772808999987319,ABC,001,2022-10-04_15h42.04.551,sequential,2022.2.2,60.808497605843975,
50,c,9,2,38,2,,,,,211.8920472000027,212.89296299999114,212.89296299999114,212.89296299999114,212.89296299999114,212.89296299999114,213.89398190000793,213.89398190000793,c,1,0.6043818999896757,ABC,001,2022-10-04_15h42.04.551,sequential,2022.2.2,60.808497605843975,
-150,z,9,3,39,3,,,,,214.54211300000316,215.52692729997216,215.52692729997216,215.52692729997216,215.52692729997216,215.54329299996607,216.52870009996695,216.52870009996695,z,1,0.39106559997890145,ABC,001,2022-10-04_15h42.04.551,sequential,2022.2.2,60.808497605843975,
-50,x,10,0,40,0,,,,,216.94379449996632,217.94306989997858,217.94306989997858,217.94306989997858,217.94306989997858,217.94306989997858,218.94557270000223,218.94557270000223,x,1,0.3984665999887511,ABC,001,2022-10-04_15h42.04.551,sequential,2022.2.2,60.808497605843975,
150,v,10,1,41,1,,,,,219.3612570000114,220.36030090000713,220.36030090000713,220.36030090000713,220.36030090000713,220.36030090000713,221.3717602000106,221.3717602000106,v,1,0.6205664000008255,ABC,001,2022-10-04_15h42.04.551,sequential,2022.2.2,60.808497605843975,
50,c,10,2,42,2,,,,,222.02718319999985,223.01256299996749,223.01256299996749,223.01256299996749,223.01256299996749,223.0289542999817,224.02701859996887,224.02701859996887,c,1,0.6642401000135578,ABC,001,2022-10-04_15h42.04.551,sequential,2022.2.2,60.808497605843975,
-150,z,10,3,43,3,,,,,224.71060749999015,225.70050510001602,225.70050510001602,225.70050510001602,225.70050510001602,225.71970309998142,226.71596679999493,226.71596679999493,z,1,0.36941349995322526,ABC,001,2022-10-04_15h42.04.551,sequential,2022.2.2,60.808497605843975,
-50,x,11,0,44,0,,,,,227.11159889999544,228.1150754999835,228.1150754999835,228.1150754999835,228.1150754999835,228.1150754999835,229.1116100999643,229.1116100999643,x,1,0.6313363999943249,ABC,001,2022-10-04_15h42.04.551,sequential,2022.2.2,60.808497605843975,
150,v,11,1,45,1,,,,,229.7618744999636,230.75258099997882,230.75258099997882,230.75258099997882,230.75258099997882,230.77117169997655,231.76802399998996,231.76802399998996,v,1,0.6011298000230454,ABC,001,2022-10-04_15h42.04.551,sequential,2022.2.2,60.808497605843975,
50,c,11,2,46,2,,,,,232.4045653999783,233.40368099999614,233.40368099999614,233.40368099999614,233.40368099999614,233.42279729997972,234.39759720000438,234.39759720000438,c,1,0.8031203999998979,ABC,001,2022-10-04_15h42.04.551,sequential,2022.2.2,60.808497605843975,
-150,z,11,3,47,3,,,,,235.23013199999696,236.23028909997083,236.23028909997083,236.23028909997083,236.23028909997083,236.23028909997083,237.23146799998358,237.23146799998358,z,1,0.48524829995585606,ABC,001,2022-10-04_15h42.04.551,sequential,2022.2.2,60.808497605843975,
-50,x,12,0,48,0,,,,,237.74625480000395,238.73196579999058,238.73196579999058,238.73196579999058,238.73196579999058,238.74818240001332,239.732267400017,239.732267400017,x,1,0.4815299999900162,ABC,001,2022-10-04_15h42.04.551,sequential,2022.2.2,60.808497605843975,
150,v,12,1,49,1,,,,,240.23123239999404,241.23148770001717,241.23148770001717,241.23148770001717,241.23148770001717,241.23148770001717,242.23259540001163,242.23259540001163,v,1,0.6290511999977753,ABC,001,2022-10-04_15h42.04.551,sequential,2022.2.2,60.808497605843975,
50,c,12,2,50,2,,,,,242.88187350000953,243.88216320000356,243.88216320000356,243.88216320000356,243.88216320000356,243.88216320000356,244.88362169999164,244.88362169999164,c,1,0.7148339999839664,ABC,001,2022-10-04_15h42.04.551,sequential,2022.2.2,60.808497605843975,
-150,z,12,3,51,3,,,,,245.61672240000917,246.6162403000053,246.6162403000053,246.6162403000053,246.6162403000053,246.6162403000053,247.6170112999971,247.6170112999971,z,1,0.49713199998950586,ABC,001,2022-10-04_15h42.04.551,sequential,2022.2.2,60.808497605843975,
-50,x,13,0,52,0,,,,,248.13362039998174,249.13324860000284,249.13324860000284,249.13324860000284,249.13324860000284,249.13324860000284,250.13208919996396,250.13208919996396,x,1,0.7003218000172637,ABC,001,2022-10-04_15h42.04.551,sequential,2022.2.2,60.808497605843975,
150,v,13,1,53,1,,,,,250.8647450999706,251.85693579999497,251.85693579999497,251.85693579999497,251.85693579999497,251.8763689000043,252.87182890000986,252.87182890000986,v,1,0.6791956999804825,ABC,001,2022-10-04_15h42.04.551,sequential,2022.2.2,60.808497605843975,
50,c,13,2,54,2,,,,,253.56833159999223,254.56791420001537,254.56791420001537,254.56791420001537,254.56791420001537,254.56791420001537,255.57101859996328,255.57101859996328,c,1,0.709752099995967,ABC,001,2022-10-04_15h42.04.551,sequential,2022.2.2,60.808497605843975,
-150,z,13,3,55,3,,,,,256.31626980000874,257.3084354000166,257.3084354000166,257.3084354000166,257.3084354000166,257.32846039999276,258.3015946999658,258.3015946999658,z,1,0.47525499999755993,ABC,001,2022-10-04_15h42.04.551,sequential,2022.2.2,60.808497605843975,
-50,x,14,0,56,0,,,,,258.80183730000863,259.7925306999823,259.7925306999823,259.7925306999823,259.7925306999823,259.8118851999752,260.800805100007,260.800805100007,x,1,0.8789537999546155,ABC,001,2022-10-04_15h42.04.551,sequential,2022.2.2,60.808497605843975,
150,v,14,1,57,1,,,,,261.7211585000041,262.7148424999905,262.7148424999905,262.7148424999905,262.7148424999905,262.7351198999677,263.7068634000025,263.7068634000025,v,1,0.9374501999700442,ABC,001,2022-10-04_15h42.04.551,sequential,2022.2.2,60.808497605843975,
50,c,14,2,58,2,,,,,264.67936680000275,265.67662869999185,265.67662869999185,265.67662869999185,265.67662869999185,265.6963180999737,266.682057500002,266.682057500002,c,1,0.7720836999942549,ABC,001,2022-10-04_15h42.04.551,sequential,2022.2.2,60.808497605843975,
-150,z,14,3,59,3,,,,,267.47615639999276,268.4772992999642,268.4772992999642,268.4772992999642,268.4772992999642,268.4972897999687,269.48596809996525,269.48596809996525,z,1,0.7504289000062272,ABC,001,2022-10-04_15h42.04.551,sequential,2022.2.2,60.808497605843975,
-50,x,15,0,60,0,,,,,270.27186999999685,271.2554249999812,271.2554249999812,271.2554249999812,271.2554249999812,271.2717040000134,272.25659840001026,272.25659840001026,x,1,0.7298114000004716,ABC,001,2022-10-04_15h42.04.551,sequential,2022.2.2,60.808497605843975,
150,v,15,1,61,1,,,,,273.00780720001785,274.0068841999746,274.0068841999746,274.0068841999746,274.0068841999746,274.0233692000038,275.0089980000048,275.0089980000048,v,1,0.47537619998911396,ABC,001,2022-10-04_15h42.04.551,sequential,2022.2.2,60.808497605843975,
50,c,15,2,62,2,,,,,275.50739819998853,276.5075294999988,276.5075294999988,276.5075294999988,276.5075294999988,276.52389169996604,277.51529189996654,277.51529189996654,c,1,0.7608441000338644,ABC,001,2022-10-04_15h42.04.551,sequential,2022.2.2,60.808497605843975,
-150,z,15,3,63,3,,,,,278.30607699998654,279.3064879999729,279.3064879999729,279.3064879999729,279.3064879999729,279.3064879999729,280.306818299985,280.306818299985,z,1,0.497847999969963,ABC,001,2022-10-04_15h42.04.551,sequential,2022.2.2,60.808497605843975,
-50,x,16,0,64,0,,,,,280.8233442999772,281.81518699997105,281.81518699997105,281.81518699997105,281.81518699997105,281.8342491000076,282.8248362999875,282.8248362999875,x,1,0.6697656000033021,ABC,001,2022-10-04_15h42.04.551,sequential,2022.2.2,60.808497605843975,
150,v,16,1,65,1,,,,,283.5412645000033,284.5285949999816,284.5285949999816,284.5285949999816,284.5285949999816,284.5453764999984,285.5278483000002,285.5278483000002,v,1,0.6465452999691479,ABC,001,2022-10-04_15h42.04.551,sequential,2022.2.2,60.808497605843975,
50,c,16,2,66,2,,,,,286.20847870002035,287.1914641999756,287.1914641999756,287.1914641999756,287.1914641999756,287.20826729998225,288.1918385999743,288.1918385999743,c,1,0.8751762000028975,ABC,001,2022-10-04_15h42.04.551,sequential,2022.2.2,60.808497605843975,
-150,z,16,3,67,3,,,,,289.0921271999832,290.09212169999955,290.09212169999955,290.09212169999955,290.09212169999955,290.09212169999955,291.09249760000966,291.09249760000966,z,1,0.4216706000152044,ABC,001,2022-10-04_15h42.04.551,sequential,2022.2.2,60.808497605843975,
-50,x,17,0,68,0,,,,,291.5425772999879,292.5427566000144,292.5427566000144,292.5427566000144,292.5427566000144,292.5427566000144,293.54294329998083,293.54294329998083,x,1,0.48914040002273396,ABC,001,2022-10-04_15h42.04.551,sequential,2022.2.2,60.808497605843975,
150,v,17,1,69,1,,,,,294.0671726000146,295.0678359000012,295.0678359000012,295.0678359000012,295.0678359000012,295.08670809998875,296.0629910000134,296.0629910000134,v,1,0.6295475999941118,ABC,001,2022-10-04_15h42.04.551,sequential,2022.2.2,60.808497605843975,
50,c,17,2,70,2,,,,,296.71042740001576,297.71412069996586,297.71412069996586,297.71412069996586,297.71412069996586,297.71412069996586,298.7259697999689,298.7259697999689,c,1,0.8611247999942861,ABC,001,2022-10-04_15h42.04.551,sequential,2022.2.2,60.808497605843975,
-150,z,17,3,71,3,,,,,299.61161829996854,300.6159095999901,300.6159095999901,300.6159095999901,300.6159095999901,300.6159095999901,301.6109924999764,301.6109924999764,z,1,0.5460784999886528,ABC,001,2022-10-04_15h42.04.551,sequential,2022.2.2,60.808497605843975,
-50,x,18,0,72,0,,,,,302.18092949996935,303.1804194999859,303.1804194999859,303.1804194999859,303.1804194999859,303.19669760001125,304.18096550001064,304.18096550001064,x,1,0.4741069999872707,ABC,001,2022-10-04_15h42.04.551,sequential,2022.2.2,60.808497605843975,
150,v,18,1,73,1,,,,,304.68136190000223,305.68065499997465,305.68065499997465,305.68065499997465,305.68065499997465,305.6971792000113,306.68143759999657,306.68143759999657,v,1,0.6545733000384644,ABC,001,2022-10-04_15h42.04.551,sequential,2022.2.2,60.808497605843975,
50,c,18,2,74,2,,,,,307.3635867999983,308.36396599997533,308.36396599997533,308.36396599997533,308.36396599997533,308.36396599997533,309.3650224999874,309.3650224999874,c,1,0.7731351000256836,ABC,001,2022-10-04_15h42.04.551,sequential,2022.2.2,60.808497605843975,
-150,z,18,3,75,3,,,,,310.16946900001494,311.16443970002,311.16443970002,311.16443970002,311.16443970002,311.18087440001545,312.1662801000057,312.1662801000057,z,1,0.4797736000036821,ABC,001,2022-10-04_15h42.04.551,sequential,2022.2.2,60.808497605843975,
-50,x,19,0,76,0,,,,,312.66415759996744,313.6566423000186,313.6566423000186,313.6566423000186,313.6566423000186,313.6810947000049,314.66441600001417,314.66441600001417,x,1,0.5694903999683447,ABC,001,2022-10-04_15h42.04.551,sequential,2022.2.2,60.808497605843975,
150,v,19,1,77,1,,,,,315.2645247000037,316.26489779999247,316.26489779999247,316.26489779999247,316.26489779999247,316.26489779999247,317.26512160000857,317.26512160000857,v,1,0.6602333000046201,ABC,001,2022-10-04_15h42.04.551,sequential,2022.2.2,60.808497605843975,
50,c,19,2,78,2,,,,,317.94860619999235,318.93903770000907,318.93903770000907,318.93903770000907,318.93903770000907,318.9576442000107,319.9493502000114,319.9493502000114,c,1,0.8103530000080355,ABC,001,2022-10-04_15h42.04.551,sequential,2022.2.2,60.808497605843975,
-150,z,19,3,79,3,,,,,320.7929125999799,321.7929358999827,321.7929358999827,321.7929358999827,321.7929358999827,321.8119033999974,322.79987789998995,322.79987789998995,z,1,0.5485584000125527,ABC,001,2022-10-04_15h42.04.551,sequential,2022.2.2,60.808497605843975,
-50,x,20,0,80,0,,,,,323.3668692999636,324.3670839999686,324.3670839999686,324.3670839999686,324.3670839999686,324.3670839999686,325.3610792999971,325.3610792999971,x,1,0.38453759998083115,ABC,001,2022-10-04_15h42.04.551,sequential,2022.2.2,60.808497605843975,
150,v,20,1,81,1,,,,,325.7688039999921,326.7683621000033,326.7683621000033,326.7683621000033,326.7683621000033,326.7683621000033,327.7696422999725,327.7696422999725,v,1,0.7492423999938183,ABC,001,2022-10-04_15h42.04.551,sequential,2022.2.2,60.808497605843975,
50,c,20,2,82,2,,,,,328.53588440001477,329.535850699991,329.535850699991,329.535850699991,329.535850699991,329.535850699991,330.5349248999846,330.5349248999846,c,1,0.8512544999830425,ABC,001,2022-10-04_15h42.04.551,sequential,2022.2.2,60.808497605843975,
-150,z,20,3,83,3,,,,,331.41853710002033,332.4089323999942,332.4089323999942,332.4089323999942,332.4089323999942,332.42885690002004,333.40522040001815,333.40522040001815,z,1,0.4899726000148803,ABC,001,2022-10-04_15h42.04.551,sequential,2022.2.2,60.808497605843975,
-50,x,21,0,84,0,,,,,333.9205968999886,334.9199701999896,334.9199701999896,334.9199701999896,334.9199701999896,334.9199701999896,335.9220721999882,335.9220721999882,x,1,0.5945453000022098,ABC,001,2022-10-04_15h42.04.551,sequential,2022.2.2,60.808497605843975,
150,v,21,1,85,1,,,,,336.5386767999735,337.53641509998124,337.53641509998124,337.53641509998124,337.53641509998124,337.55305089999456,338.53674259997206,338.53674259997206,v,1,0.5917616999940947,ABC,001,2022-10-04_15h42.04.551,sequential,2022.2.2,60.808497605843975,
50,c,21,2,86,2,,,,,339.1534895999939,340.1537145000184,340.1537145000184,340.1537145000184,340.1537145000184,340.1537145000184,341.15400849998696,341.15400849998696,c,1,0.6251712000230327,ABC,001,2022-10-04_15h42.04.551,sequential,2022.2.2,60.808497605843975,
-150,z,21,3,87,3,,,,,341.8041645999765,342.79458699998213,342.79458699998213,342.79458699998213,342.79458699998213,342.81425950000994,343.8138293999946,343.8138293999946,z,1,0.6791014999616891,ABC,001,2022-10-04_15h42.04.551,sequential,2022.2.2,60.808497605843975,
-50,x,22,0,88,0,,,,,344.5221344999736,345.5225618999684,345.5225618999684,345.5225618999684,345.5225618999684,345.5225618999684,346.510361499968,346.510361499968,x,1,0.43182110000634566,ABC,001,2022-10-04_15h42.04.551,sequential,2022.2.2,60.808497605843975,
150,v,22,1,89,1,,,,,346.96454089996405,347.96212909999304,347.96212909999304,347.96212909999304,347.96212909999304,347.981119700009,348.96074949996546,348.96074949996546,v,1,0.694869099999778,ABC,001,2022-10-04_15h42.04.551,sequential,2022.2.2,60.808497605843975,
50,c,22,2,90,2,,,,,349.6905774999759,350.6954849999747,350.6954849999747,350.6954849999747,350.6954849999747,350.6954849999747,351.6883446999709,351.6883446999709,c,1,0.6816132999956608,ABC,001,2022-10-04_15h42.04.551,sequential,2022.2.2,60.808497605843975,
-150,z,22,3,91,3,,,,,352.39402219996555,353.39820190001046,353.39820190001046,353.39820190001046,353.39820190001046,353.41725609998684,354.3905953000067,354.3905953000067,z,1,0.6416788999922574,ABC,001,2022-10-04_15h42.04.551,sequential,2022.2.2,60.808497605843975,
-50,x,23,0,92,0,,,,,355.0755700999871,356.0753204000066,356.0753204000066,356.0753204000066,356.0753204000066,356.0918115999666,357.0660732999677,357.0660732999677,x,1,0.5495719999889843,ABC,001,2022-10-04_15h42.04.551,sequential,2022.2.2,60.808497605843975,
150,v,23,1,93,1,,,,,357.6579065999831,358.6468407000066,358.6468407000066,358.6468407000066,358.6468407000066,358.66530789999524,359.65729559998726,359.65729559998726,v,1,0.6323589999810793,ABC,001,2022-10-04_15h42.04.551,sequential,2022.2.2,60.808497605843975,
50,c,23,2,94,2,,,,,360.3178121999954,361.3145752999699,361.3145752999699,361.3145752999699,361.3145752999699,361.3350789999822,362.3100529999938,362.3100529999938,c,1,0.671401200001128,ABC,001,2022-10-04_15h42.04.551,sequential,2022.2.2,60.808497605843975,
-150,z,23,3,95,3,,,,,363.0093153999769,363.99551119998796,363.99551119998796,363.99551119998796,363.99551119998796,364.0105874000001,365.0145437999745,365.0145437999745,z,1,0.5595940000494011,ABC,001,2022-10-04_15h42.04.551,sequential,2022.2.2,60.808497605843975,
-150,z,,,,,0,0,0,3,365.594884799968,366.58562199998414,366.58562199998414,366.58562199998414,366.58562199998414,366.6041637000162,367.5973956999951,367.5973956999951,z,1,0.6711733000120148,ABC,001,2022-10-04_15h42.04.551,sequential,2022.2.2,60.808497605843975,
150,v,,,,,0,1,1,1,368.2909995999653,369.2777858999907,369.2777858999907,369.2777858999907,369.2777858999907,369.2941761999973,370.2784179999726,370.2784179999726,v,1,0.603315600019414,ABC,001,2022-10-04_15h42.04.551,sequential,2022.2.2,60.808497605843975,
-150,z,,,,,0,2,2,3,370.9111419999972,371.91170349996537,371.91170349996537,371.91170349996537,371.91170349996537,371.91170349996537,372.91263289999915,372.91263289999915,z,1,0.6830975000048056,ABC,001,2022-10-04_15h42.04.551,sequential,2022.2.2,60.808497605843975,
50,c,,,,,0,3,3,2,373.61173860001145,374.6119947999832,374.6119947999832,374.6119947999832,374.6119947999832,374.6119947999832,375.6131018999731,375.6131018999731,c,1,1.1546934000216424,ABC,001,2022-10-04_15h42.04.551,sequential,2022.2.2,60.808497605843975,
50,c,,,,,1,0,4,2,376.8125379999983,377.80021969997324,377.80021969997324,377.80021969997324,377.80021969997324,377.81749230000423,378.7959606999648,378.7959606999648,c,1,0.7586384000023827,ABC,001,2022-10-04_15h42.04.551,sequential,2022.2.2,60.808497605843975,
150,v,,,,,1,1,5,1,379.57941720000235,380.579740999965,380.579740999965,380.579740999965,380.579740999965,380.579740999965,381.5798985000001,381.5798985000001,v,1,0.6673232999746688,ABC,001,2022-10-04_15h42.04.551,sequential,2022.2.2,60.808497605843975,
-50,x,,,,,1,2,6,0,382.27508549997583,383.26983439998,383.26983439998,383.26983439998,383.26983439998,383.28896069998154,384.2660409999662,384.2660409999662,x,1,0.8682083999738097,ABC,001,2022-10-04_15h42.04.551,sequential,2022.2.2,60.808497605843975,
-50,x,,,,,1,3,7,0,385.16440409998177,386.1649745000177,386.1649745000177,386.1649745000177,386.1649745000177,386.1649745000177,387.16671839996707,387.16671839996707,x,1,1.2710490000317805,ABC,001,2022-10-04_15h42.04.551,sequential,2022.2.2,60.808497605843975,
150,v,,,,,2,0,8,1,388.46632529998897,389.4654737999663,389.4654737999663,389.4654737999663,389.4654737999663,389.4654737999663,390.4672382000135,390.4672382000135,v,1,0.7165157000417821,ABC,001,2022-10-04_15h42.04.551,sequential,2022.2.2,60.808497605843975,
-150,z,,,,,2,1,9,3,391.1997263999656,392.2000481999712,392.2000481999712,392.2000481999712,392.2000481999712,392.2000481999712,393.20123750000494,393.20123750000494,z,1,0.7373410000000149,ABC,001,2022-10-04_15h42.04.551,sequential,2022.2.2,60.808497605843975,
-150,z,,,,,2,2,10,3,393.9678028000053,394.96749239997007,394.96749239997007,394.96749239997007,394.96749239997007,394.9839404000086,395.96829889999935,395.96829889999935,z,1,0.6652346000191756,ABC,001,2022-10-04_15h42.04.551,sequential,2022.2.2,60.808497605843975,
150,v,,,,,2,3,11,1,396.6672070000204,397.66758959996514,397.66758959996514,397.66758959996514,397.66758959996514,397.66758959996514,398.66705069999443,398.66705069999443,v,1,0.5905844999942929,ABC,001,2022-10-04_15h42.04.551,sequential,2022.2.2,60.808497605843975,
-150,z,,,,,3,0,12,3,399.27758449997054,400.273610299977,400.273610299977,400.273610299977,400.273610299977,400.29252179997275,401.2676299000159,401.2676299000159,z,1,0.5433629000326619,ABC,001,2022-10-04_15h42.04.551,sequential,2022.2.2,60.808497605843975,
-50,x,,,,,3,1,13,0,401.8528324000072,402.83534049999435,402.83534049999435,402.83534049999435,402.83534049999435,402.8517810999765,403.8362269999925,403.8362269999925,x,1,0.6095219999551773,ABC,001,2022-10-04_15h42.04.551,sequential,2022.2.2,60.808497605843975,
-150,z,,,,,3,2,14,3,404.4690536999842,405.46907170000486,405.46907170000486,405.46907170000486,405.46907170000486,405.46907170000486,406.45343529997626,406.45343529997626,z,1,0.5544650999945588,ABC,001,2022-10-04_15h42.04.551,sequential,2022.2.2,60.808497605843975,
-50,x,,,,,3,3,15,0,407.0363843999803,408.0362724000006,408.0362724000006,408.0362724000006,408.0362724000006,408.0362724000006,409.03801740001654,409.03801740001654,x,1,1.062040299992077,ABC,001,2022-10-04_15h42.04.551,sequential,2022.2.2,60.808497605843975,
-150,z,,,,,4,0,16,3,410.13963340001646,411.14329799998086,411.14329799998086,411.14329799998086,411.14329799998086,411.1620865999721,412.13816639996367,412.13816639996367,z,1,0.4945533000282012,ABC,001,2022-10-04_15h42.04.551,sequential,2022.2.2,60.808497605843975,
-50,x,,,,,4,1,17,0,412.65451999998186,413.6544199999771,413.6544199999771,413.6544199999771,413.6544199999771,413.6544199999771,414.66100939997705,414.66100939997705,x,1,1.7473356000264175,ABC,001,2022-10-04_15h42.04.551,sequential,2022.2.2,60.808497605843975,
50,c,,,,,4,2,18,2,416.43890479998663,417.4387045999756,417.4387045999756,417.4387045999756,417.4387045999756,417.4387045999756,418.4396337000071,418.4396337000071,c,1,1.183622699987609,ABC,001,2022-10-04_15h42.04.551,sequential,2022.2.2,60.808497605843975,
50,c,,,,,4,3,19,2,419.63915950001683,420.6392228999757,420.6392228999757,420.6392228999757,420.6392228999757,420.6392228999757,421.6331211999641,421.6331211999641,c,1,1.5086852999520488,ABC,001,2022-10-04_15h42.04.551,sequential,2022.2.2,60.808497605843975,
-50,x,,,,,5,0,20,0,423.17941340000834,424.17914510000264,424.17914510000264,424.17914510000264,424.17914510000264,424.19814260001294,425.17459100001724,425.17459100001724,x,1,0.9381215000175871,ABC,001,2022-10-04_15h42.04.551,sequential,2022.2.2,60.808497605843975,
-50,x,,,,,5,1,21,0,426.14057370001683,427.140737299982,427.140737299982,427.140737299982,427.140737299982,427.140737299982,428.140489500016,428.140489500016,x,1,0.76827920001233,ABC,001,2022-10-04_15h42.04.551,sequential,2022.2.2,60.808497605843975,
-50,x,,,,,5,2,22,0,428.94068840000546,429.93035099998815,429.93035099998815,429.93035099998815,429.93035099998815,429.94860469998093,430.9268459000159,430.9268459000159,x,1,0.730674899998121,ABC,001,2022-10-04_15h42.04.551,sequential,2022.2.2,60.808497605843975,
50,c,,,,,5,3,23,2,431.6745333999861,432.6649072999717,432.6649072999717,432.6649072999717,432.6649072999717,432.6855050000013,433.67349969997304,433.67349969997304,c,1,0.9519837000407279,ABC,001,2022-10-04_15h42.04.551,sequential,2022.2.2,60.808497605843975,
-150,z,,,,,6,0,24,3,434.6426982000121,435.64253319997806,435.64253319997806,435.64253319997806,435.64253319997806,435.64253319997806,436.6424165000208,436.6424165000208,z,1,0.6905276000034064,ABC,001,2022-10-04_15h42.04.551,sequential,2022.2.2,60.808497605843975,
50,c,,,,,6,1,25,2,437.3592935000197,438.3595179999829,438.3595179999829,438.3595179999829,438.3595179999829,438.3595179999829,439.359689600009,439.359689600009,c,1,1.1873424000223167,ABC,001,2022-10-04_15h42.04.551,sequential,2022.2.2,60.808497605843975,
-50,x,,,,,6,2,26,0,440.56966859998647,441.56664079998154,441.56664079998154,441.56664079998154,441.56664079998154,441.5859118999797,442.56018009997206,442.56018009997206,x,1,0.5397336999885738,ABC,001,2022-10-04_15h42.04.551,sequential,2022.2.2,60.808497605843975,
50,c,,,,,6,3,27,2,443.13038970000343,444.1327814999968,444.1327814999968,444.1327814999968,444.1327814999968,444.1327814999968,445.13490880001336,445.13490880001336,c,1,0.9465162999695167,ABC,001,2022-10-04_15h42.04.551,sequential,2022.2.2,60.808497605843975,
-50,x,,,,,7,0,28,0,446.1114254000131,447.1010260999901,447.1010260999901,447.1010260999901,447.1010260999901,447.1212712000124,448.096401399991,448.096401399991,x,1,0.9565159999765456,ABC,001,2022-10-04_15h42.04.551,sequential,2022.2.2,60.808497605843975,
50,c,,,,,7,1,29,2,449.0795671999804,450.0795491000172,450.0795491000172,450.0795491000172,450.0795491000172,450.0795491000172,451.0790610999684,451.0790610999684,c,1,0.9330391000257805,ABC,001,2022-10-04_15h42.04.551,sequential,2022.2.2,60.808497605843975,
-50,x,,,,,7,2,30,0,452.0292678999831,453.02003489999333,453.02003489999333,453.02003489999333,453.02003489999333,453.0394169999636,454.0357792999712,454.0357792999712,x,1,1.1188871000194922,ABC,001,2022-10-04_15h42.04.551,sequential,2022.2.2,60.808497605843975,
150,v,,,,,7,3,31,1,455.19837880000705,456.1878922000178,456.1878922000178,456.1878922000178,456.1878922000178,456.206459500012,457.1816633999697,457.1816633999697,v,1,0.9029408000060357,ABC,001,2022-10-04_15h42.04.551,sequential,2022.2.2,60.808497605843975,
-50,x,,,,,8,0,32,0,458.0993618000066,459.0999764999724,459.0999764999724,459.0999764999724,459.0999764999724,459.1156413999852,460.0930744999787,460.0930744999787,x,1,0.6574830000172369,ABC,001,2022-10-04_15h42.04.551,sequential,2022.2.2,60.808497605843975,
150,v,,,,,8,1,33,1,460.7846876999829,461.78857360000256,461.78857360000256,461.78857360000256,461.78857360000256,461.8092800999875,462.7832943999674,462.7832943999674,v,1,0.6617390000028536,ABC,001,2022-10-04_15h42.04.551,sequential,2022.2.2,60.808497605843975,
-150,z,,,,,8,2,34,3,463.4655073999893,464.4660062000039,464.4660062000039,464.4660062000039,464.4660062000039,464.4660062000039,465.4667735999683,465.4667735999683,z,1,0.5232199999736622,ABC,001,2022-10-04_15h42.04.551,sequential,2022.2.2,60.808497605843975,
50,c,,,,,8,3,35,2,466.0182292999816,467.02257219998864,467.02257219998864,467.02257219998864,467.02257219998864,467.02257219998864,468.01859940000577,468.01859940000577,c,1,0.9730374999926426,ABC,001,2022-10-04_15h42.04.551,sequential,2022.2.2,60.808497605843975,
50,c,,,,,9,0,36,2,469.0169146999833,470.0011729999678,470.0011729999678,470.0011729999678,470.0011729999678,470.0171482000151,471.0028232000186,471.0028232000186,c,1,0.7060282999882475,ABC,001,2022-10-04_15h42.04.551,sequential,2022.2.2,60.808497605843975,
-50,x,,,,,9,1,37,0,471.73409699997865,472.7345695999684,472.7345695999684,472.7345695999684,472.7345695999684,472.7345695999684,473.74041329999454,473.74041329999454,x,1,0.6860589000280015,ABC,001,2022-10-04_15h42.04.551,sequential,2022.2.2,60.808497605843975,
150,v,,,,,9,2,38,1,474.4668284999789,475.45283089997247,475.45283089997247,475.45283089997247,475.45283089997247,475.4693541000015,476.4672386000166,476.4672386000166,v,1,1.0938567999983206,ABC,001,2022-10-04_15h42.04.551,sequential,2022.2.2,60.808497605843975,
150,v,,,,,9,3,39,1,477.59390719997464,478.58713810000336,478.58713810000336,478.58713810000336,478.58713810000336,478.6033582999953,479.5892399000004,479.5892399000004,v,1,0.7010786000173539,ABC,001,2022-10-04_15h42.04.551,sequential,2022.2.2,60.808497605843975,
-50,x,,,,,10,0,40,0,480.31894859997556,481.30848680000054,481.30848680000054,481.30848680000054,481.30848680000054,481.3289873999893,482.32085620000726,482.32085620000726,x,1,0.7987376000382937,ABC,001,2022-10-04_15h42.04.551,sequential,2022.2.2,60.808497605843975,
150,v,,,,,10,1,41,1,483.1366711999872,484.13704770000186,484.13704770000186,484.13704770000186,484.13704770000186,484.13704770000186,485.1392229999765,485.1392229999765,v,1,0.6471104999654926,ABC,001,2022-10-04_15h42.04.551,sequential,2022.2.2,60.808497605843975,
-50,x,,,,,10,2,42,0,485.82026090001455,486.8171371999779,486.8171371999779,486.8171371999779,486.8171371999779,486.8419717999641,487.82366880000336,487.82366880000336,x,1,0.6720255999825895,ABC,001,2022-10-04_15h42.04.551,sequential,2022.2.2,60.808497605843975,
150,v,,,,,10,3,43,1,488.5232631000108,489.52271809999365,489.52271809999365,489.52271809999365,489.52271809999365,489.539197599981,490.5233715000213,490.5233715000213,v,1,0.7618030000012368,ABC,001,2022-10-04_15h42.04.551,sequential,2022.2.2,60.808497605843975,
-150,z,,,,,11,0,44,3,491.32082590000937,492.3066739999922,492.3066739999922,492.3066739999922,492.3066739999922,492.3232943000039,493.3075549000059,493.3075549000059,z,1,1.1032915999530815,ABC,001,2022-10-04_15h42.04.551,sequential,2022.2.2,60.808497605843975,
-150,z,,,,,11,1,45,3,494.43964080000296,495.42422879999503,495.42422879999503,495.42422879999503,495.42422879999503,495.4405611999682,496.4395030000014,496.4395030000014,z,1,0.5663888999843039,ABC,001,2022-10-04_15h42.04.551,sequential,2022.2.2,60.808497605843975,
150,v,,,,,11,2,46,1,497.0230787000037,498.02314030000707,498.02314030000707,498.02314030000707,498.02314030000707,498.02314030000707,499.0234868999687,499.0234868999687,v,1,0.5177045000018552,ABC,001,2022-10-04_15h42.04.551,sequential,2022.2.2,60.808497605843975,
-150,z,,,,,11,3,47,3,499.5736202999833,500.5625359999831,500.5625359999831,500.5625359999831,500.5625359999831,500.5810934000183,501.5587567000184,501.5587567000184,z,1,0.5782369000371546,ABC,001,2022-10-04_15h42.04.551,sequential,2022.2.2,60.808497605843975,
-150,z,,,,,12,0,48,3,502.15812799998093,503.15805369999725,503.15805369999725,503.15805369999725,503.15805369999725,503.15805369999725,504.1594999000081,504.1594999000081,z,1,0.7360582000110298,ABC,001,2022-10-04_15h42.04.551,sequential,2022.2.2,60.808497605843975,
-50,x,,,,,12,1,49,0,504.926850799995,505.9261747999699,505.9261747999699,505.9261747999699,505.9261747999699,505.94270620000316,506.92728850001004,506.92728850001004,x,1,0.5762447000015527,ABC,001,2022-10-04_15h42.04.551,sequential,2022.2.2,60.808497605843975,
50,c,,,,,12,2,50,2,507.52580830000807,508.52791249996517,508.52791249996517,508.52791249996517,508.52791249996517,508.52791249996517,509.5275529999635,509.5275529999635,c,1,0.7556923999800347,ABC,001,2022-10-04_15h42.04.551,sequential,2022.2.2,60.808497605843975,
-150,z,,,,,12,3,51,3,510.3092672000057,511.3095087999827,511.3095087999827,511.3095087999827,511.3095087999827,511.3095087999827,512.3015135999885,512.3015135999885,z,1,0.5062320999568328,ABC,001,2022-10-04_15h42.04.551,sequential,2022.2.2,60.808497605843975,
-150,z,,,,,13,0,52,3,512.8448268999928,513.8329804000095,513.8329804000095,513.8329804000095,513.8329804000095,513.8519667999935,514.849656699982,514.849656699982,z,1,0.5851934000384063,ABC,001,2022-10-04_15h42.04.551,sequential,2022.2.2,60.808497605843975,
150,v,,,,,13,1,53,1,515.4624687000178,516.4652756999712,516.4652756999712,516.4652756999712,516.4652756999712,516.4652756999712,517.4630366999772,517.4630366999772,v,1,0.5867770999902859,ABC,001,2022-10-04_15h42.04.551,sequential,2022.2.2,60.808497605843975,
50,c,,,,,13,2,54,2,518.0799525000039,519.0795005999971,519.0795005999971,519.0795005999971,519.0795005999971,519.0957516999915,520.0816571000032,520.0816571000032,c,1,0.8296140999882482,ABC,001,2022-10-04_15h42.04.551,sequential,2022.2.2,60.808497605843975,
-50,x,,,,,13,3,55,0,520.9310621999903,521.919012999977,521.919012999977,521.919012999977,521.919012999977,521.9374567000195,522.9351867999649,522.9351867999649,x,1,0.5722493999637663,ABC,001,2022-10-04_15h42.04.551,sequential,2022.2.2,60.808497605843975,
50,c,,,,,14,0,56,2,523.54818350001,524.546608900011,524.546608900011,524.546608900011,524.546608900011,524.5629569999874,525.547668299987,525.547668299987,c,1,0.8599730999558233,ABC,001,2022-10-04_15h42.04.551,sequential,2022.2.2,60.808497605843975,
-150,z,,,,,14,1,57,3,526.4301821999834,527.4306110999896,527.4306110999896,527.4306110999896,527.4306110999896,527.4306110999896,528.4328120999853,528.4328120999853,z,1,0.7749829999520443,ABC,001,2022-10-04_15h42.04.551,sequential,2022.2.2,60.808497605843975,
-150,z,,,,,14,2,58,3,529.2264515999705,530.2233702999656,530.2233702999656,530.2233702999656,530.2233702999656,530.2422245999915,531.2159061999992,531.2159061999992,z,1,0.6895264000049792,ABC,001,2022-10-04_15h42.04.551,sequential,2022.2.2,60.808497605843975,
-150,z,,,,,14,3,59,3,531.9324944000109,532.9317677000072,532.9317677000072,532.9317677000072,532.9317677000072,532.9317677000072,533.9337620000006,533.9337620000006,z,1,0.5065455000149086,ABC,001,2022-10-04_15h42.04.551,sequential,2022.2.2,60.808497605843975,
150,v,,,,,15,0,60,1,534.4658008000115,535.4659873999772,535.4659873999772,535.4659873999772,535.4659873999772,535.4659873999772,536.4665456999792,536.4665456999792,v,1,0.6844476000405848,ABC,001,2022-10-04_15h42.04.551,sequential,2022.2.2,60.808497605843975,
-150,z,,,,,15,1,61,3,537.1851964999805,538.1873945000116,538.1873945000116,538.1873945000116,538.1873945000116,538.1873945000116,539.1914380000089,539.1914380000089,z,1,0.45347980002406985,ABC,001,2022-10-04_15h42.04.551,sequential,2022.2.2,60.808497605843975,
-50,x,,,,,15,2,62,0,539.6717189999763,540.6671228000196,540.6671228000196,540.6671228000196,540.6671228000196,540.6832628999837,541.6678508999757,541.6678508999757,x,1,0.5756648000096902,ABC,001,2022-10-04_15h42.04.551,sequential,2022.2.2,60.808497605843975,
-150,z,,,,,15,3,63,3,542.2682114000199,543.2676816000021,543.2676816000021,543.2676816000021,543.2676816000021,543.2676816000021,544.2684474000125,544.2684474000125,z,1,0.5220079999999143,ABC,001,2022-10-04_15h42.04.551,sequential,2022.2.2,60.808497605843975,
-150,z,,,,,16,0,64,3,544.8180416999967,545.8178993000183,545.8178993000183,545.8178993000183,545.8178993000183,545.8178993000183,546.8190350999939,546.8190350999939,z,1,0.7215355999651365,ABC,001,2022-10-04_15h42.04.551,sequential,2022.2.2,60.808497605843975,
-50,x,,,,,16,1,65,0,547.5682382999803,548.5689420999843,548.5689420999843,548.5689420999843,548.5689420999843,548.5689420999843,549.5731141999713,549.5731141999713,x,1,0.7074671000009403,ABC,001,2022-10-04_15h42.04.551,sequential,2022.2.2,60.808497605843975,
150,v,,,,,16,2,66,1,550.3004395000171,551.2912758999737,551.2912758999737,551.2912758999737,551.2912758999737,551.3100447999896,552.3034118000069,552.3034118000069,v,1,0.7786350999958813,ABC,001,2022-10-04_15h42.04.551,sequential,2022.2.2,60.808497605843975,
50,c,,,,,16,3,67,2,553.1029029000201,554.1030987999984,554.1030987999984,554.1030987999984,554.1030987999984,554.1030987999984,555.1029830999905,555.1029830999905,c,1,0.5871609000023454,ABC,001,2022-10-04_15h42.04.551,sequential,2022.2.2,60.808497605843975,
-50,x,,,,,17,0,68,0,555.7117150999838,556.7169946000213,556.7169946000213,556.7169946000213,556.7169946000213,556.739519499999,557.7036882999819,557.7036882999819,x,1,1.153808899980504,ABC,001,2022-10-04_15h42.04.551,sequential,2022.2.2,60.808497605843975,
-150,z,,,,,17,1,69,3,558.8871404000092,559.89188130002,559.89188130002,559.89188130002,559.89188130002,559.89188130002,560.8880419000052,560.8880419000052,z,1,0.5065802999888547,ABC,001,2022-10-04_15h42.04.551,sequential,2022.2.2,60.808497605843975,
-50,x,,,,,17,2,70,0,561.4209501000005,562.4113541999832,562.4113541999832,562.4113541999832,562.4113541999832,562.4304854999646,563.4117090000072,563.4117090000072,x,1,0.6739864999544807,ABC,001,2022-10-04_15h42.04.551,sequential,2022.2.2,60.808497605843975,
150,v,,,,,17,3,71,1,564.1249465000001,565.1279587000026,565.1279587000026,565.1279587000026,565.1279587000026,565.1468261000118,566.12510200002,566.12510200002,v,1,0.7401534999953583,ABC,001,2022-10-04_15h42.04.551,sequential,2022.2.2,60.808497605843975,
50,c,,,,,18,0,72,2,566.8971305000014,567.8973987000063,567.8973987000063,567.8973987000063,567.8973987000063,567.9155294999946,568.8895514999749,568.8895514999749,c,1,0.6648187999962829,ABC,001,2022-10-04_15h42.04.551,sequential,2022.2.2,60.808497605843975,
150,v,,,,,18,1,73,1,569.5814248999814,570.5733528999845,570.5733528999845,570.5733528999845,570.5733528999845,570.5899376000161,571.5896446999977,571.5896446999977,v,1,0.6560058000031859,ABC,001,2022-10-04_15h42.04.551,sequential,2022.2.2,60.808497605843975,
150,v,,,,,18,2,74,1,572.2741864999989,573.2756848999998,573.2756848999998,573.2756848999998,573.2756848999998,573.2756848999998,574.2740004999796,574.2740004999796,v,1,0.5688001000089571,ABC,001,2022-10-04_15h42.04.551,sequential,2022.2.2,60.808497605843975,
50,c,,,,,18,3,75,2,574.8765432999935,575.8793282000115,575.8793282000115,575.8793282000115,575.8793282000115,575.8793282000115,576.8827101999777,576.8827101999777,c,1,1.3107628999860026,ABC,001,2022-10-04_15h42.04.551,sequential,2022.2.2,60.808497605843975,
150,v,,,,,19,0,76,1,578.2252945000073,579.2254412000184,579.2254412000184,579.2254412000184,579.2254412000184,579.2254412000184,580.226404200017,580.226404200017,v,1,0.7701851000310853,ABC,001,2022-10-04_15h42.04.551,sequential,2022.2.2,60.808497605843975,
50,c,,,,,19,1,77,2,581.0242790000048,582.010378499981,582.010378499981,582.010378499981,582.010378499981,582.0261111999862,583.0116274000029,583.0116274000029,c,1,0.7337995000416413,ABC,001,2022-10-04_15h42.04.551,sequential,2022.2.2,60.808497605843975,
-150,z,,,,,19,2,78,3,583.776664200006,584.7609282999765,584.7609282999765,584.7609282999765,584.7609282999765,584.7767719000112,585.7673669999931,585.7673669999931,z,1,0.5872251999680884,ABC,001,2022-10-04_15h42.04.551,sequential,2022.2.2,60.808497605843975,
150,v,,,,,19,3,79,1,586.3774926000042,587.3777207999956,587.3777207999956,587.3777207999956,587.3777207999956,587.3777207999956,588.3688982999884,588.3688982999884,v,1,0.7965274000307545,ABC,001,2022-10-04_15h42.04.551,sequential,2022.2.2,60.808497605843975,
150,v,,,,,20,0,80,1,589.1944249999942,590.1782219000161,590.1782219000161,590.1782219000161,590.1782219000161,590.1945581000182,591.1791738999891,591.1791738999891,v,1,0.6226758999982849,ABC,001,2022-10-04_15h42.04.551,sequential,2022.2.2,60.808497605843975,
150,v,,,,,20,1,81,1,591.8282917999895,592.8285206999863,592.8285206999863,592.8285206999863,592.8285206999863,592.8285206999863,593.8304531999747,593.8304531999747,v,1,0.7942237000097521,ABC,001,2022-10-04_15h42.04.551,sequential,2022.2.2,60.808497605843975,
-50,x,,,,,20,2,82,0,594.6464909000206,595.6477401999873,595.6477401999873,595.6477401999873,595.6477401999873,595.6477401999873,596.6484551000176,596.6484551000176,x,1,0.5826260999892838,ABC,001,2022-10-04_15h42.04.551,sequential,2022.2.2,60.808497605843975,
150,v,,,,,20,3,83,1,597.2625012999633,598.2526558999671,598.2526558999671,598.2526558999671,598.2526558999671,598.2726639999892,599.2630301999743,599.2630301999743,v,1,0.6874676999868825,ABC,001,2022-10-04_15h42.04.551,sequential,2022.2.2,60.808497605843975,
-50,x,,,,,21,0,84,0,599.9798584000091,600.9706436999841,600.9706436999841,600.9706436999841,600.9706436999841,600.9902716999641,601.9670938000199,601.9670938000199,x,1,0.705231299973093,ABC,001,2022-10-04_15h42.04.551,sequential,2022.2.2,60.808497605843975,
50,c,,,,,21,1,85,2,602.6986228000023,603.6981203000178,603.6981203000178,603.6981203000178,603.6981203000178,603.6981203000178,604.6996551000047,604.6996551000047,c,1,1.5393461000057869,ABC,001,2022-10-04_15h42.04.551,sequential,2022.2.2,60.808497605843975,
50,c,,,,,21,2,86,2,606.2657589999726,607.264835799986,607.264835799986,607.264835799986,607.264835799986,607.264835799986,608.264975500002,608.264975500002,c,1,1.203170399996452,ABC,001,2022-10-04_15h42.04.551,sequential,2022.2.2,60.808497605843975,
50,c,,,,,21,3,87,2,609.5036274999729,610.5072170000058,610.5072170000058,610.5072170000058,610.5072170000058,610.5273612000165,611.4995061999653,611.4995061999653,c,1,0.6789815999800339,ABC,001,2022-10-04_15h42.04.551,sequential,2022.2.2,60.808497605843975,
50,c,,,,,22,0,88,2,612.1987896999926,613.1911326000118,613.1911326000118,613.1911326000118,613.1911326000118,613.2097264999757,614.2013353999937,614.2013353999937,c,1,0.6693352999864146,ABC,001,2022-10-04_15h42.04.551,sequential,2022.2.2,60.808497605843975,
50,c,,,,,22,1,89,2,614.9044640000211,615.9002479999908,615.9002479999908,615.9002479999908,615.9002479999908,615.9170193999889,616.9004949000082,616.9004949000082,c,1,0.7401543000014499,ABC,001,2022-10-04_15h42.04.551,sequential,2022.2.2,60.808497605843975,
-50,x,,,,,22,2,90,0,617.6674022999941,618.6676125999657,618.6676125999657,618.6676125999657,618.6676125999657,618.6676125999657,619.6680545000127,619.6680545000127,x,1,0.9284953000023961,ABC,001,2022-10-04_15h42.04.551,sequential,2022.2.2,60.808497605843975,
150,v,,,,,22,3,91,1,620.6180837000138,621.6182794999913,621.6182794999913,621.6182794999913,621.6182794999913,621.6182794999913,622.6186035000137,622.6186035000137,v,1,0.7998386999825016,ABC,001,2022-10-04_15h42.04.551,sequential,2022.2.2,60.808497605843975,
50,c,,,,,23,0,92,2,623.435394399974,624.4355847999686,624.4355847999686,624.4355847999686,624.4355847999686,624.4355847999686,625.4358640999999,625.4358640999999,c,1,1.1128593999892473,ABC,001,2022-10-04_15h42.04.551,sequential,2022.2.2,60.808497605843975,
-150,z,,,,,23,1,93,3,626.5669868999976,627.5589323000167,627.5589323000167,627.5589323000167,627.5589323000167,627.5777516000089,628.5551569999661,628.5551569999661,z,1,0.6830997999641113,ABC,001,2022-10-04_15h42.04.551,sequential,2022.2.2,60.808497605843975,
50,c,,,,,23,2,94,2,629.2698475999641,630.2701433000038,630.2701433000038,630.2701433000038,630.2701433000038,630.2701433000038,631.2703712999937,631.2703712999937,c,1,0.8926940999808721,ABC,001,2022-10-04_15h42.04.551,sequential,2022.2.2,60.808497605843975,
150,v,,,,,23,3,95,1,632.1872082999907,633.1769196999958,633.1769196999958,633.1769196999958,633.1769196999958,633.195500199974,634.1724121000152,634.1724121000152,v,1,0.5497988000279292,ABC,001,2022-10-04_15h42.04.551,sequential,2022.2.2,60.808497605843975,
